{"resourceType":"Bundle","id":"tests-USCorePatient-1-bundle","type":"transaction","entry":[{"resource":{"resourceType":"Observation","id":"example-height","meta":{"profile":["http://hl7.org/fhir/StructureDefinition/bodyheight"]},"status":"final","code":{"coding":[{"system":"http://loinc.org","code":"8302-2","display":"Body height"}]},"subject":{"reference":"Patient/USCorePatient-1"},"effectiveDateTime":"2023-02-23T00:00:00-00:00","valueQuantity":{"value":175.4,"unit":"cm","system":"http://unitsofmeasure.org","code":"cm"}},"request":{"method":"PUT","url":"Observation/example-height"}},{"resource":{"resourceType":"Encounter","id":"encounter-outpatient-USCorePatient-1","meta":{"profile":["http://hl7.org/fhir/us/core/StructureDefinition/us-core-encounter"]},"status":"finished","class":{"system":"http://terminology.hl7.org/CodeSystems/v3-ActCode","code":"AMB","display":"ambulatory"},"type":[{"coding":[{"system":"http://www.ama-assn.org/go/cpt","code":"99201"}]}],"subject":{"reference":"Patient/USCorePatient-1"},"participant":[{"type":[{"coding":[{"system":"http://terminology.hl7.org/CodeSystem/v3-ParticipationType","code":"DIS","display":"discharger"}]}],"individual":{"reference":"Practitioner/order-provider-USCorePatient-1"}}]},"request":{"method":"PUT","url":"Encounter/encounter-outpatient-USCorePatient-1"}},{"resource":{"resourceType":"MedicationRequest","id":"MedRequest-example","meta":{"profile":["http://hl7.org/fhir/us/core/StructureDefinition/us-core-medicationrequest"]},"status":"active","intent":"order","medicationCodeableConcept":{"coding":[{"system":"http://www.nlm.nih.gov/research/umls/rxnorm","code":"582620","display":"Nizatidine 15 MG/ML Oral Solution [Axid]"}],"text":"Nizatidine 15 MG/ML Oral Solution [Axid]"},"subject":{"reference":"Patient/USCorePatient-1"},"authoredOn":"2015-03-25T19:32:52-05:00","requester":{"reference":"Practitioner/order-provider-USCorePatient-1"},"dosageInstruction":[{"text":"bid"}]},"request":{"method":"PUT","url":"MedicationRequest/MedRequest-example"}},{"resource":{"resourceType":"Observation","id":"example-weight","meta":{"profile":["http://hl7.org/fhir/StructureDefinition/bodyweight"]},"status":"final","code":{"coding":[{"system":"http://loinc.org","code":"29463-7","display":"Body Weight"}]},"subject":{"reference":"Patient/USCorePatient-1"},"effectiveDateTime":"2023-02-23T00:00:00-00:00","valueQuantity":{"value":80,"unit":"kg","system":"http://unitsofmeasure.org","code":"kg"}},"request":{"method":"PUT","url":"Observation/example-weight"}},{"resource":{"resourceType":"Medication","id":"uscore-med1","meta":{"profile":["http://hl7.org/fhir/us/core/StructureDefinition/us-core-medication"]},"code":{"coding":[{"system":"http://www.nlm.nih.gov/research/umls/rxnorm","code":"206765","display":"Lisinopril 10 MG Oral Tablet [Prinivil]"}],"text":"lisinopril oral 10 mg"}},"request":{"method":"PUT","url":"Medication/uscore-med1"}},{"resource":{"resourceType":"Practitioner","id":"order-provider-USCorePatient-1","meta":{"profile":["http://hl7.org/fhir/us/core/StructureDefinition/us-core-practioner"]},"identifier":[{"system":"http://hl7.org.fhir/sid/us-npi","value":"1821424433"}],"name":[{"family":"AGGARWAL","given":["VAIBHAV"],"suffix":["PharmD"]}],"telecom":[{"system":"phone","value":"718-416-5672"}],"address":[{"line":["8914 115TH ST"],"city":"RICHMOND HIL","state":"NY","postalCode":"114183135","country":"US"}]},"request":{"method":"PUT","url":"Practitioner/order-provider-USCorePatient-1"}},{"resource":{"resourceType":"Condition","id":"condition-bp","meta":{"profile":["http://hl7.org/fhir/us/core/StructureDefinition/us-core-condition"]},"clinicalStatus":{"coding":[{"system":"http://terminology.hl7.org/CodeSystem/condition-clinical","code":"active"}]},"verificationStatus":{"coding":[{"system":"http://terminology.hl7.org/CodeSystem/condition-ver-status","code":"confirmed"}]},"category":[{"coding":[{"system":"http://terminology.hl7.org/CodeSystem/condition-category","code":"encounter-diagnosis","display":"Encounter Diagnosis"}]}],"code":{"coding":[{"system":"http://hl7.org/fhir/sid/icd-10-cm","code":"I10","display":"Essential (primary) hypertension"}]},"subject":{"reference":"Patient/USCorePatient-1"},"encounter":{"reference":"Encounter/encounter-outpatient-USCorePatient-1"},"onsetDateTime":"2012-05-24T00:00:00+00:00","recordedDate":"2012-05-24T00:00:00+00:00"},"request":{"method":"PUT","url":"Condition/condition-bp"}},{"resource":{"resourceType":"Patient","id":"USCorePatient-1","meta":{"profile":["http://hl7.org/fhir/us/core/StructureDefinition/us-core-patient"]},"identifier":[{"use":"usual","type":{"coding":[{"system":"http://terminology.hl7.org/CodeSystem/v2-0203","code":"MR","display":"Medical Record Number"}]},"system":"urn:oid:1.2.36.146.595.217.0.1","value":"12345","period":{"start":"2001-05-06"},"assigner":{"display":"Acme Healthcare"}}],"active":true,"name":[{"use":"official","family":"Chalmers","given":["Peter","James"]},{"use":"usual","family":"Chalmers","given":["Jim"]},{"use":"maiden","family":"Windsor","given":["Peter","James"],"period":{"end":"2002"}}],"telecom":[{"system":"phone","value":"(03) 5555 6473","use":"work"},{"system":"phone","value":"(03) 3410 5613","use":"mobile"},{"system":"phone","value":"(03) 5555 8834","use":"old","period":{"end":"2014"}}],"gender":"male","birthDate":"1974-12-25","_birthDate":{"extension":[{"url":"http://hl7.org/fhir/StructureDefinition/patient-birthTime","valueDateTime":"1974-12-25T14:35:45-05:00"}]},"deceasedBoolean":false,"address":[{"use":"home","type":"both","text":"534 Erewhon St PeasantVille, Utah 84414","line":["534 Erewhon St"],"city":"PleasantVille","district":"Rainbow","state":"UT","postalCode":"84414","period":{"start":"1974-12-25"}}],"maritalStatus":{"coding":[{"system":"http://terminology.hl7.org/CodeSystem/v3-MaritalStatus","code":"M"}]},"contact":[{"relationship":[{"coding":[{"system":"http://terminology.hl7.org/CodeSystem/v2-0131","code":"N"}]}],"name":{"family":"du Marché","_family":{"extension":[{"url":"http://hl7.org/fhir/StructureDefinition/humanname-own-prefix","valueString":"VV"}]},"given":["Bénédicte"]},"telecom":[{"system":"phone","value":"+33 (237) 998327"}],"address":{"use":"home","type":"both","line":["534 Erewhon St"],"city":"PleasantVille","district":"Rainbow","state":"VT","postalCode":"3999","period":{"start":"1974-12-25"}},"gender":"female","period":{"start":"2012"}}]},"request":{"method":"PUT","url":"Patient/USCorePatient-1"}}]}