{"resourceType":"Bundle","id":"tests-USCorePatient-2-bundle","type":"transaction","entry":[{"resource":{"resourceType":"Observation","id":"example-height","meta":{"profile":["http://hl7.org/fhir/StructureDefinition/bodyheight"]},"status":"final","code":{"coding":[{"system":"http://loinc.org","code":"8302-2","display":"Body height"}]},"subject":{"reference":"Patient/USCorePatient-2"},"effectiveDateTime":"2023-02-27T00:00:00-00:00","valueQuantity":{"value":69.2,"unit":"in","system":"http://unitsofmeasure.org","code":"in"}},"request":{"method":"PUT","url":"Observation/example-height"}},{"resource":{"resourceType":"Patient","id":"USCorePatient-2","meta":{"profile":["http://hl7.org/fhir/us/core/StructureDefinition/us-core-patient"]},"identifier":[{"use":"usual","type":{"coding":[{"system":"http://terminology.hl7.org/CodeSystem/v2-0203","code":"MR","display":"Medical Record Number"}]},"system":"urn:oid:1.2.36.146.595.217.0.1","value":"123456","period":{"start":"2002-05-06"},"assigner":{"display":"Acme Healthcare"}}],"active":true,"name":[{"use":"official","family":"Elizabeth","given":["Jennifer"]}],"telecom":[{"system":"phone","value":"(02) 5555 6473","use":"work"}],"gender":"female","birthDate":"1975-12-25","_birthDate":{"extension":[{"url":"http://hl7.org/fhir/StructureDefinition/patient-birthTime","valueDateTime":"1974-12-25T14:35:45-05:00"}]},"deceasedBoolean":false,"address":[{"use":"home","type":"both","text":"534 Erewhon St PeasantVille, Utah 84414","line":["534 Erewhon St"],"city":"PleasantVille","district":"Rainbow","state":"UT","postalCode":"84414","period":{"start":"1974-12-25"}}],"maritalStatus":{"coding":[{"system":"http://terminology.hl7.org/CodeSystem/v3-MaritalStatus","code":"M"}]}},"request":{"method":"PUT","url":"Patient/USCorePatient-2"}},{"resource":{"resourceType":"Practitioner","id":"order-provider-USCorePatient-2","meta":{"profile":["http://hl7.org/fhir/us/core/StructureDefinition/us-core-practioner"]},"identifier":[{"system":"http://hl7.org.fhir/sid/us-npi","value":"1821424433"}],"name":[{"family":"AGGARWAL","given":["VAIBHAV"],"suffix":["PharmD"]}],"telecom":[{"system":"phone","value":"718-416-5672"}],"address":[{"line":["8914 115TH ST"],"city":"RICHMOND HIL","state":"NY","postalCode":"114183135","country":"US"}]},"request":{"method":"PUT","url":"Practitioner/order-provider-USCorePatient-2"}},{"resource":{"resourceType":"Observation","id":"example-weight","meta":{"profile":["http://hl7.org/fhir/StructureDefinition/bodyweight"]},"status":"final","code":{"coding":[{"system":"http://loinc.org","code":"29463-7","display":"Body Weight"}]},"subject":{"reference":"Patient/USCorePatient-2"},"effectiveDateTime":"2023-02-27T00:00:00-00:00","valueQuantity":{"value":80.2,"unit":"kg","system":"http://unitsofmeasure.org","code":"kg"}},"request":{"method":"PUT","url":"Observation/example-weight"}},{"resource":{"resourceType":"Encounter","id":"encounter-outpatient-USCorePatient-2","meta":{"profile":["http://hl7.org/fhir/us/core/StructureDefinition/us-core-encounter"]},"status":"finished","class":{"system":"http://terminology.hl7.org/CodeSystems/v3-ActCode","code":"AMB","display":"ambulatory"},"type":[{"coding":[{"system":"http://www.ama-assn.org/go/cpt","code":"99201"}]}],"subject":{"reference":"Patient/USCorePatient-2"},"participant":[{"type":[{"coding":[{"system":"http://terminology.hl7.org/CodeSystem/v3-ParticipationType","code":"DIS","display":"discharger"}]}],"individual":{"reference":"Practitioner/order-provider-USCorePatient-2"}}]},"request":{"method":"PUT","url":"Encounter/encounter-outpatient-USCorePatient-2"}},{"resource":{"resourceType":"MedicationRequest","id":"MedRequest-insulin","status":"active","intent":"order","medicationCodeableConcept":{"coding":[{"system":"http://www.nlm.nih.gov/research/umls/rxnorm","code":"92880","display":"Humulin N"}],"text":"Humulin N"},"subject":{"reference":"Patient/USCorePatient-1"},"authoredOn":"2015-03-25T19:32:52-05:00","requester":{"reference":"Practitioner/order-provider-USCorePatient-2"},"dosageInstruction":[{"text":"qhs"}]},"request":{"method":"PUT","url":"MedicationRequest/MedRequest-insulin"}},{"resource":{"resourceType":"Condition","id":"condition-gdm","meta":{"profile":["http://hl7.org/fhir/us/core/StructureDefinition/us-core-condition"]},"clinicalStatus":{"coding":[{"system":"http://terminology.hl7.org/CodeSystem/condition-clinical","code":"active"}]},"verificationStatus":{"coding":[{"system":"http://terminology.hl7.org/CodeSystem/condition-ver-status","code":"confirmed"}]},"category":[{"coding":[{"system":"http://terminology.hl7.org/CodeSystem/condition-category","code":"encounter-diagnosis","display":"Encounter Diagnosis"}]}],"code":{"coding":[{"system":"http://hl7.org/fhir/sid/icd-10-cm","code":"O24.414","display":"Gestational diabetes mellitus in pregnancy, insulin controlled"}]},"subject":{"reference":"Patient/USCorePatient-2"},"encounter":{"reference":"Encounter/encounter-outpatient-USCorePatient-2"},"onsetDateTime":"2012-05-24T00:00:00+00:00","recordedDate":"2012-05-24T00:00:00+00:00"},"request":{"method":"PUT","url":"Condition/condition-gdm"}}]}